<?xml version="1.0" encoding="utf-8"?>
<Bundle xmlns="http://hl7.org/fhir" xmlns:xhtml="http://www.w3.org/1999/xhtml">
	<id value="IPS-examples-Bundle-minimal"/>
	<language value="en-US"/>
	<identifier>
		<system value="urn:oid:2.16.724.4.8.10.200.10"/>
		<value value="28b95815-76ce-457b-b7ae-a972e527db40"/>
	</identifier>
	<type value="document"/>
	<timestamp value="2020-12-11T14:30:00+01:00"/>
	<!--e0-->
	<entry>
		<fullUrl value="urn:uuid:30551ce1-5a28-4356-b684-1e639094ad4d"/>
		<resource>
			<Composition>
				<id value="30551ce1-5a28-4356-b684-1e639094ad4d"/>
				<identifier>
					<system value="urn:oid:2.16.724.4.8.10.200.10"/>
					<value value="3f69e0a5-2177-4540-baab-7a5d0877428f"/>
				</identifier>
				<status value="final"/>
				<type>
					<coding>
						<system value="http://loinc.org"/>
						<code value="60591-5"/>
						<display value="Patient summary Document"/>
					</coding>
				</type>
				<subject>
					<reference value="Patient/2b90dd2b-2dab-4c75-9bb9-a355e07401e8"/>
				</subject>
				<date value="2020-12-11T14:30:00+01:00"/>
				<author>
					<reference value="Practitioner/1c616b24-3895-48c4-9a02-9a64110351ef"/>
				</author>
				<title value="Patient Summary as of December 11, 2020 14:30"/>
				<confidentiality value="N"/>
				<attester>
					<mode value="legal"/>
					<time value="2020-12-11T14:30:00+01:00"/>
					<party>
						<reference value="Practitioner/1c616b24-3895-48c4-9a02-9a64110351ef"/>
					</party>
				</attester>
				<attester>
					<mode value="legal"/>
					<time value="2020-12-11T14:30:00+01:00"/>
					<party>
						<reference value="Organization/890751f4-2924-4636-bab7-efffc7f3cf15"/>
					</party>
				</attester>
				<custodian>
					<reference value="Organization/890751f4-2924-4636-bab7-efffc7f3cf15"/>
				</custodian>
				<relatesTo>
					<code value="appends"/>
					<targetIdentifier>
						<system value="urn:oid:2.16.724.4.8.10.200.10"/>
						<value value="c2277753-9f90-4a95-8ddb-a0b3f6e7d292"/>
					</targetIdentifier>
				</relatesTo>
				<event>
					<code>
						<coding>
							<system value="http://terminology.hl7.org/CodeSystem/v3-ActClass"/>
							<code value="PCPR"/>
						</coding>
					</code>
					<period>
						<end value="2020-12-11T14:30:00+01:00"/>
					</period>
				</event>
				<section>
					<title value="Active Problems"/>
					<code>
						<coding>
							<system value="http://loinc.org"/>
							<code value="11450-4"/>
							<display value="Problem list Reported"/>
						</coding>
					</code>
					<text>
						<status value="generated"/>
						<xhtml:div>Hot flushes</xhtml:div>
					</text>
					<entry>
						<reference value="Condition/c64139e7-f02d-409c-bf34-75e8bf23bc80"/>
					</entry>
				</section>
				<section>
					<title value="Medication"/>
					<code>
						<coding>
							<system value="http://loinc.org"/>
							<code value="10160-0"/>
							<display value="History of Medication use Narrative"/>
						</coding>
					</code>
					<text>
						<status value="generated"/>
						<xhtml:div>
							<xhtml:table>
								<xhtml:thead>
									<xhtml:tr>
										<xhtml:th>Medication</xhtml:th>
										<xhtml:th>Strength</xhtml:th>
										<xhtml:th>Form</xhtml:th>
										<xhtml:th>Dosage</xhtml:th>
										<xhtml:th>Comment</xhtml:th>
									</xhtml:tr>
								</xhtml:thead>
								<xhtml:tbody>
									<xhtml:tr>
										<xhtml:td>Anastrozole</xhtml:td>
										<xhtml:td>1 mg</xhtml:td>
										<xhtml:td>tablet</xhtml:td>
										<xhtml:td>once daily</xhtml:td>
										<xhtml:td>treatment for breast cancer</xhtml:td>
									</xhtml:tr>
								</xhtml:tbody>
							</xhtml:table>
						</xhtml:div>
					</text>
					<entry>
						<reference value="MedicationStatement/c220e36c-eb67-4fc4-9ba1-2fabc52acec6"/>
					</entry>
				</section>
				<section>
					<title value="Allergies and Intolerances"/>
					<code>
						<coding>
							<system value="http://loinc.org"/>
							<code value="48765-2"/>
							<display value="Allergies and adverse reactions Document"/>
						</coding>
					</code>
					<text>
						<status value="generated"/>
						<xhtml:div>Allergy to penicillin, high criticality, active
							No known food allergies
						</xhtml:div>
					</text>
					<entry>
						<reference value="AllergyIntolerance/72884cad-ebe6-4f43-a51a-2f978275f132"/>
					</entry>
				</section>
			</Composition>
		</resource>
	</entry>
	<!--e1-->
	<entry>
		<fullUrl value="urn:uuid:2b90dd2b-2dab-4c75-9bb9-a355e07401e8"/>
		<resource>
			<Patient>
				<id value="2b90dd2b-2dab-4c75-9bb9-a355e07401e8"/>
				<identifier>
					<system value="urn:oid:2.16.840.1.113883.2.4.6.3"/>
					<value value="574687583"/>
				</identifier>
				<active value="true"/>
				<name>
					<family value="DeLarosa"/>
					<given value="Martha"/>
				</name>
				<telecom>
					<system value="phone"/>
					<value value="+31788700800"/>
					<use value="home"/>
				</telecom>
				<gender value="female"/>
				<birthDate value="1972-05-01"/>
				<address>
					<line value="Laan Van Europa 1600"/>
					<city value="Dordrecht"/>
					<postalCode value="3317 DB"/>
					<country value="Netherlands"/>
				</address>
				<contact>
					<relationship>
						<coding>
							<system value="http://terminology.hl7.org/CodeSystem/v3-RoleCode"/>
							<code value="MTH"/>
						</coding>
					</relationship>
					<name>
						<family value="Mum"/>
						<given value="Martha"/>
					</name>
					<telecom>
						<system value="phone"/>
						<value value="+33-555-20036"/>
						<use value="home"/>
					</telecom>
					<address>
						<line value="Promenade des Anglais 111"/>
						<city value="Lyon"/>
						<postalCode value="69001"/>
						<country value="France"/>
					</address>
				</contact>
			</Patient>
		</resource>
	</entry>
	<!--e2-->
	<entry>
		<fullUrl value="urn:uuid:1c616b24-3895-48c4-9a02-9a64110351ef"/>
		<resource>
			<Practitioner>
				<id value="1c616b24-3895-48c4-9a02-9a64110351ef"/>
				<identifier>
					<system value="urn:oid:2.16.528.1.1007.3.1"/>
					<value value="129854633"/>
					<assigner>
						<display value="CIBG"/>
					</assigner>
				</identifier>
				<active value="true"/>
				<name>
					<family value="van Hulp"/>
					<given value="Beetje"/>
				</name>
				<qualification>
					<code>
						<coding>
							<system value="http://terminology.hl7.org/CodeSystem/v2-0360|2.7"/>
							<code value="MD"/>
							<display value="Doctor of Medicine"/>
						</coding>
					</code>
				</qualification>
			</Practitioner>
		</resource>
	</entry>
	<!--e3-->
	<entry>
		<fullUrl value="urn:uuid:890751f4-2924-4636-bab7-efffc7f3cf15"/>
		<resource>
			<Organization>
				<id value="890751f4-2924-4636-bab7-efffc7f3cf15"/>
				<identifier>
					<system value="urn:oid:2.16.528.1.1007.3.3"/>
					<value value="564738757"/>
				</identifier>
				<active value="true"/>
				<name value="Anorg Aniza Tion BV / The best custodian ever"/>
				<telecom>
					<system value="phone"/>
					<value value="+31-51-34343400"/>
					<use value="work"/>
				</telecom>
				<address>
					<use value="work"/>
					<line value="Houttuinen 27"/>
					<city value="Dordrecht"/>
					<postalCode value="3311 CE"/>
					<country value="Netherlands"/>
				</address>
			</Organization>
		</resource>
	</entry>
	<!--e4-->
	<entry>
		<fullUrl value="urn:uuid:c64139e7-f02d-409c-bf34-75e8bf23bc80"/>
		<resource>
			<Condition>
				<id value="c64139e7-f02d-409c-bf34-75e8bf23bc80"/>
				<identifier>
					<system value="urn:oid:1.2.3.999"/>
					<value value="c87bf51c-e53c-4bfe-b8b7-aa62bdd93002"/>
				</identifier>
				<clinicalStatus>
					<coding>
						<system value="http://terminology.hl7.org/CodeSystem/condition-clinical"/>
						<code value="active"/>
					</coding>
				</clinicalStatus>
				<verificationStatus>
					<coding>
						<system value="http://terminology.hl7.org/CodeSystem/condition-ver-status"/>
						<code value="confirmed"/>
					</coding>
				</verificationStatus>
				<category>
					<coding>
						<system value="http://loinc.org"/>
						<code value="75326-9"/>
						<display value="Problem"/>
					</coding>
				</category>
				<severity>
					<coding>
						<system value="http://loinc.org"/>
						<code value="LA6751-7"/>
						<display value="Moderate"/>
					</coding>
				</severity>
				<code>
					<coding>
						<system value="http://snomed.info/sct"/>
						<code value="198436008"/>
						<display value="Menopausal flushing (finding)">
							<extension url="http://hl7.org/fhir/StructureDefinition/translation">
								<extension url="lang">
									<valueCode value="nl-NL"/>
								</extension>
								<extension url="content">
									<valueString value="opvliegers"/>
								</extension>
							</extension>
						</display>
					</coding>
					<coding>
						<system value="http://hl7.org/fhir/sid/icd-10"/>
						<code value="N95.1"/>
						<display value="Menopausal and female climacteric states"/>
					</coding>
				</code>
				<subject>
					<reference value="Patient/2b90dd2b-2dab-4c75-9bb9-a355e07401e8"/>
				</subject>
				<onsetDateTime value="2015"/>
				<recordedDate value="2016-10"/>
			</Condition>
		</resource>
	</entry>
	<!--e5-->
	<entry>
		<fullUrl value="urn:uuid:c220e36c-eb67-4fc4-9ba1-2fabc52acec6"/>
		<resource>
			<MedicationStatement>
				<id value="c220e36c-eb67-4fc4-9ba1-2fabc52acec6"/>
				<identifier>
					<system value="urn:oid:1.2.3.999"/>
					<value value="b75f92cb-61d4-469a-9387-df5ef70d25f0"/>
				</identifier>
				<status value="active"/>
				<medicationReference>
					<reference value="Medication/976d0804-cae0-45ae-afe3-a19f3ceba6bc"/>
				</medicationReference>
				<subject>
					<reference value="Patient/2b90dd2b-2dab-4c75-9bb9-a355e07401e8"/>
				</subject>
				<effectivePeriod>
					<start value="2015-03"/>
				</effectivePeriod>
				<dosage>
					<timing>
						<repeat>
							<count value="1"/>
							<periodUnit value="d"/>
						</repeat>
					</timing>
					<route>
						<coding>
							<system value="http://standardterms.edqm.eu"/>
							<code value="20053000"/>
							<display value="Oral use"/>
						</coding>
					</route>
					<doseAndRate>
						<type>
							<coding>
								<system value="http://terminology.hl7.org/CodeSystem/dose-rate-type"/>
								<code value="ordered"/>
								<display value="Ordered"/>
							</coding>
						</type>
						<doseQuantity>
							<value value="1"/>
							<unit value="tablet"/>
							<system value="http://unitsofmeasure.org"/>
							<code value="1"/>
						</doseQuantity>
					</doseAndRate>
				</dosage>
			</MedicationStatement>
		</resource>
	</entry>
	<!--e7-->
	<entry>
		<fullUrl value="urn:uuid:976d0804-cae0-45ae-afe3-a19f3ceba6bc"/>
		<resource>
			<Medication>
				<id value="976d0804-cae0-45ae-afe3-a19f3ceba6bc"/>
				<code>
					<coding>
						<system value="http://snomed.info/sct"/>
						<code value="108774000"/>
						<display value="Product containing anastrozole (medicinal product)"/>
					</coding>
					<coding>
						<system value="urn:oid:2.16.840.1.113883.2.4.4.1"/>
						<code value="99872"/>
						<display value="ANASTROZOL 1MG TABLET"/>
					</coding>
					<coding>
						<system value="urn:oid:2.16.840.1.113883.2.4.4.7"/>
						<code value="2076667"/>
						<display value="ANASTROZOL CF TABLET FILMOMHULD 1MG"/>
					</coding>
					<coding>
						<system value="http://www.whocc.no/atc"/>
						<code value="L02BG03"/>
						<display value="anastrozole"/>
					</coding>
				</code>
			</Medication>
		</resource>
	</entry>
	<!--e9-->
	<entry>
		<fullUrl value="urn:uuid:72884cad-ebe6-4f43-a51a-2f978275f132"/>
		<resource>
			<AllergyIntolerance>
				<id value="72884cad-ebe6-4f43-a51a-2f978275f132"/>
				<identifier>
					<system value="urn:oid:1.2.3.999"/>
					<value value="3a462598-009c-484a-965c-d6b24a821424"/>
				</identifier>
				<clinicalStatus>
					<coding>
						<system value="http://terminology.hl7.org/CodeSystem/allergyintolerance-clinical"/>
						<code value="active"/>
					</coding>
				</clinicalStatus>
				<verificationStatus>
					<coding>
						<system value="http://terminology.hl7.org/CodeSystem/allergyintolerance-verification"/>
						<code value="confirmed"/>
					</coding>
				</verificationStatus>
				<type value="allergy"/>
				<category value="medication"/>
				<criticality value="high"/>
				<code>
					<coding>
						<system value="http://snomed.info/sct"/>
						<code value="373270004"/>
						<display value="Substance with penicillin structure and antibacterial mechanism of action (substance)"/>
					</coding>
				</code>
				<patient>
					<reference value="Patient/2b90dd2b-2dab-4c75-9bb9-a355e07401e8"/>
				</patient>
				<onsetDateTime value="2010"/>
			</AllergyIntolerance>
		</resource>
	</entry>
</Bundle>
